 ******GRWAVE  (RELEASE 2 AT 23/10/1985 )********
 *****COPYRIGHT  (C)   GEC   PLC   1985   *********
 CCIR Personal Computer Version 1989 Study Group 5 IWP5/1
 
 GRWAVE COMPUTES FIELD STRENGTH-DISTANCE VARIATIONS
 FOR A HOMOGENEOUS CURVED EARTH WITH EXPONENTIALLY
 DECREASING REFRACTIVE INDEX


                     ATMOSPHERIC CONSTANTS
                         REFRACTIVITY =315.00  (N-UNITS)
                         SCALE HEIGHT = 7.350  KM

                     GROUND CONSTANTS
                         RELATIVE PERMITTIVITY =    30.000
                         CONDUCTIVITY =1.0000D-02  SIEMENS/METRE

                     VERTICAL POLARISATION

                     MINIMUM DISTANCE =     1.000  KILOMETRES
                     MAXIMUM DISTANCE =   784.010  KILOMETRES
                     DSTEP            =     5.000  KILOMETRES


                     FREQUENCY =    1.000 MHZ

                     TRANSMITTER HEIGHT =   193.9  METRES
                     RECIEVER HEIGHT    =    56.9  METRES

                     DISTANCE      FIELD STRENGTH     BASIC TRANSMISSION LOSS
                        KM            DB(UV/M)               DB           (F) 
                          1.00        107.70                30.20
                          6.00         90.37                47.53
                         11.00         83.71                54.19
                         16.00         79.20                58.71
                         21.00         75.66                62.25
                         26.00         72.68                65.22
                         31.00         70.08                67.82
                         36.00         67.75                70.15
                         41.00         65.63                72.28
                         46.00         63.67                74.23
                         51.00         61.85                76.06
                         56.00         60.14                77.76
                         61.00         58.54                79.36
                         66.00         57.02                80.88
                         71.00         55.59                82.32
                         76.00         54.22                83.68
                         81.00         52.92                84.98
                         86.00         51.68                86.22
                         91.00         50.49                87.41
                         96.00         49.35                88.55
                        101.00         48.26                89.64
                        106.00         47.21                90.70
                        105.69         47.27                90.63
                                                                          (R)
                        289.01         22.09               115.81
                        294.01         21.56               116.34
                        299.01         21.03               116.87
                        304.01         20.51               117.39
                        309.01         19.99               117.91
                        314.01         19.48               118.43
                        319.01         18.96               118.94
                        324.01         18.45               119.45
                        329.01         17.94               119.96
                        334.01         17.44               120.46
                        339.01         16.93               120.97
                        344.01         16.43               121.47
                        349.01         15.93               121.97
                        354.01         15.43               122.47
                        359.01         14.94               122.96
                        364.01         14.44               123.46
                        369.01         13.95               123.95
                        374.01         13.46               124.44
                        379.01         12.97               124.93
                        384.01         12.48               125.42
                        389.01         12.00               125.90
                        394.01         11.51               126.39
                        399.01         11.03               126.87
                        404.01         10.55               127.36
                        409.01         10.06               127.84
                        414.01          9.58               128.32
                        419.01          9.10               128.80
                        424.01          8.63               129.28
                        429.01          8.15               129.75
                        434.01          7.67               130.23
                        439.01          7.20               130.71
                        444.01          6.72               131.18
                        449.01          6.25               131.65
                        454.01          5.78               132.13
                        459.01          5.30               132.60
                        464.01          4.83               133.07
                        469.01          4.36               133.54
                        474.01          3.89               134.01
                        479.01          3.42               134.48
                        484.01          2.95               134.95
                        489.01          2.49               135.42
                        494.01          2.02               135.88
                        499.01          1.55               136.35
                        504.01          1.08               136.82
                        509.01          0.62               137.28
                        514.01          0.15               137.75
                        519.01         -0.31               138.21
                        524.01         -0.78               138.68
                        529.01         -1.24               139.14
                        534.01         -1.70               139.61
                        539.01         -2.17               140.07
                        544.01         -2.63               140.53
                        549.01         -3.09               140.99
                        554.01         -3.55               141.46
                        559.01         -4.01               141.92
                        564.01         -4.48               142.38
                        569.01         -4.94               142.84
                        574.01         -5.40               143.30
                        579.01         -5.86               143.76
                        584.01         -6.32               144.22
                        589.01         -6.78               144.68
                        594.01         -7.23               145.14
                        599.01         -7.69               145.60
                        604.01         -8.15               146.05
                        609.01         -8.61               146.51
                        614.01         -9.07               146.97
                        619.01         -9.53               147.43
                        624.01         -9.98               147.88
                        629.01        -10.44               148.34
                        634.01        -10.90               148.80
                        639.01        -11.35               149.26
                        644.01        -11.81               149.71
                        649.01        -12.26               150.17
                        654.01        -12.72               150.62
                        659.01        -13.18               151.08
                        664.01        -13.63               151.53
                        669.01        -14.09               151.99
                        674.01        -14.54               152.44
                        679.01        -15.00               152.90
                        684.01        -15.45               153.35
                        689.01        -15.90               153.81
                        694.01        -16.36               154.26
                        699.01        -16.81               154.72
                        704.01        -17.27               155.17
                        709.01        -17.72               155.62
                        714.01        -18.17               156.08
                        719.01        -18.63               156.53
                        724.01        -19.08               156.98
                        729.01        -19.53               157.43
                        734.01        -19.98               157.89
                        739.01        -20.44               158.34
                        744.01        -20.89               158.79
                        749.01        -21.34               159.24
                        754.01        -21.79               159.69
                        759.01        -22.24               160.15
                        764.01        -22.70               160.60
                        769.01        -23.15               161.05
                        774.01        -23.60               161.50
                        779.01        -24.05               161.95
                        784.01        -24.50               162.40
