 ******GRWAVE  (RELEASE 2 AT 23/10/1985 )********
 *****COPYRIGHT  (C)   GEC   PLC   1985   *********
 CCIR Personal Computer Version 1989 Study Group 5 IWP5/1
 
 GRWAVE COMPUTES FIELD STRENGTH-DISTANCE VARIATIONS
 FOR A HOMOGENEOUS CURVED EARTH WITH EXPONENTIALLY
 DECREASING REFRACTIVE INDEX


                     ATMOSPHERIC CONSTANTS
                         REFRACTIVITY =315.00  (N-UNITS)
                         SCALE HEIGHT = 7.350  KM

                     GROUND CONSTANTS
                         RELATIVE PERMITTIVITY =    30.000
                         CONDUCTIVITY =5.0000D+00  SIEMENS/METRE

                     VERTICAL POLARISATION

                     MINIMUM DISTANCE =     1.000  KILOMETRES
                     MAXIMUM DISTANCE =  1000.000  KILOMETRES
                     DSTEP            =     5.000  KILOMETRES


                     FREQUENCY =  900.000 MHZ

                     TRANSMITTER HEIGHT =   273.6  METRES
                     RECIEVER HEIGHT    =   410.0  METRES

                     DISTANCE      FIELD STRENGTH     BASIC TRANSMISSION LOSS
                        KM            DB(UV/M)               DB           (G) 
                          6.33         88.86               106.18
                         11.33         84.72               110.33
                         16.33         79.48               115.57
                         21.33         79.28               115.77
                         26.33         67.65               127.39
                         31.33         76.27               118.78
                         36.33         76.96               118.08
                         41.33         60.00               135.05
                         46.33         58.79               136.26
                         51.33         72.95               122.10
                         56.33         60.65               134.39
                         61.33         69.70               125.35
                         66.33         69.83               125.22
                         71.33         66.71               128.34
                         76.33         55.37               139.68
                         81.33         67.73               127.32
                         86.33         68.29               126.76
                         91.33         58.74               136.31
                         96.33         67.80               127.24
                        101.33         60.16               134.89
                        106.33         64.87               130.17
                        111.33         65.52               129.53
                        116.33         56.91               138.14
                        121.33         61.85               133.20
                        126.33         64.43               130.62
                        131.33         63.38               131.67
                        136.33         60.78               134.27
                        141.33         58.53               136.51
                        146.33         58.03               137.02
                        151.33         58.64               136.41
                                                                          (R)
                        505.00       -262.65               457.70
                        510.00       -267.03               462.08
                        515.00       -271.41               466.46
                        520.00       -275.78               470.83
                        525.00       -280.16               475.21
                        530.00       -284.54               479.58
                        535.00       -288.91               483.96
                        540.00       -293.28               488.33
                        545.00       -297.66               492.71
                        550.00       -302.03               497.08
                        555.00       -306.41               501.45
                        560.00       -310.78               505.83
                        565.00       -315.15               510.20
                        570.00       -319.52               514.57
                        575.00       -323.90               518.94
                        580.00       -328.27               523.32
                        585.00       -332.64               527.69
                        590.00       -337.01               532.06
                        595.00       -341.38               536.43
                        600.00       -345.75               540.80
                        605.00       -350.12               545.17
                        610.00       -354.49               549.54
                        615.00       -358.86               553.91
                        620.00       -363.23               558.28
                        625.00       -367.60               562.65
                        630.00       -371.97               567.02
                        635.00       -376.34               571.39
                        640.00       -380.71               575.75
                        645.00       -385.07               580.12
                        650.00       -389.44               584.49
                        655.00       -393.81               588.86
                        660.00       -398.18               593.22
                        665.00       -402.54               597.59
                        670.00       -406.91               601.96
                        675.00       -411.28               606.32
                        680.00       -415.64               610.69
                        685.00       -420.01               615.06
                        690.00       -424.37               619.42
                        695.00       -428.74               623.79
                        700.00       -433.10               628.15
                        705.00       -437.47               632.52
                        710.00       -441.83               636.88
                        715.00       -446.20               641.25
                        720.00       -450.56               645.61
                        725.00       -454.93               649.98
                        730.00       -459.29               654.34
                        735.00       -463.66               658.70
                        740.00       -468.02               663.07
                        745.00       -472.38               667.43
                        750.00       -476.75               671.79
                        755.00       -481.11               676.16
                        760.00       -485.47               680.52
                        765.00       -489.83               684.88
                        770.00       -494.20               689.24
                        775.00       -498.56               693.61
                        780.00       -502.92               697.97
                        785.00       -507.28               702.33
                        790.00       -511.64               706.69
                        795.00       -516.01               711.05
                        800.00       -520.37               715.42
                        805.00       -524.73               719.78
                        810.00       -529.09               724.14
                        815.00       -533.45               728.50
                        820.00       -537.81               732.86
                        825.00       -542.17               737.22
                        830.00       -546.53               741.58
                        835.00       -550.89               745.94
                        840.00       -555.25               750.30
                        845.00       -559.61               754.66
                        850.00       -563.97               759.02
                        855.00       -568.33               763.38
                        860.00       -572.69               767.74
                        865.00       -577.05               772.10
                        870.00       -581.41               776.46
                        875.00       -585.77               780.82
                        880.00       -590.13               785.18
                        885.00       -594.49               789.53
                        890.00       -598.84               793.89
                        895.00       -603.20               798.25
                        900.00       -607.56               802.61
                        905.00       -611.92               806.97
                        910.00       -616.28               811.33
                        915.00       -620.64               815.68
                        920.00       -624.99               820.04
                        925.00       -629.35               824.40
                        930.00       -633.71               828.76
                        935.00       -638.07               833.11
                        940.00       -642.42               837.47
                        945.00       -646.78               841.83
                        950.00       -651.14               846.19
                        955.00       -655.49               850.54
                        960.00       -659.85               854.90
                        965.00       -664.21               859.26
                        970.00       -668.56               863.61
                        975.00       -672.92               867.97
                        980.00       -677.28               872.33
                        985.00       -681.63               876.68
                        990.00       -685.99               881.04
                        995.00       -690.35               885.39
                       1000.00       -694.70               889.75
