 ******GRWAVE  (RELEASE 2 AT 23/10/1985 )********
 *****COPYRIGHT  (C)   GEC   PLC   1985   *********
 CCIR Personal Computer Version 1989 Study Group 5 IWP5/1
 
 GRWAVE COMPUTES FIELD STRENGTH-DISTANCE VARIATIONS
 FOR A HOMOGENEOUS CURVED EARTH WITH EXPONENTIALLY
 DECREASING REFRACTIVE INDEX


                     ATMOSPHERIC CONSTANTS
                         REFRACTIVITY =315.00  (N-UNITS)
                         SCALE HEIGHT = 7.350  KM

                     GROUND CONSTANTS
                         RELATIVE PERMITTIVITY =    30.000
                         CONDUCTIVITY =1.0000D-02  SIEMENS/METRE

                     VERTICAL POLARISATION

                     MINIMUM DISTANCE =     1.000  KILOMETRES
                     MAXIMUM DISTANCE =  1000.000  KILOMETRES
                     DSTEP            =     5.000  KILOMETRES


                     FREQUENCY =    1.000 MHZ

                     TRANSMITTER HEIGHT =   193.9  METRES
                     RECIEVER HEIGHT    =    56.9  METRES

                     DISTANCE      FIELD STRENGTH     BASIC TRANSMISSION LOSS
                        KM            DB(UV/M)               DB           (F) 
                          1.00        107.70                30.20
                          6.00         90.37                47.53
                         11.00         83.71                54.19
                         16.00         79.20                58.71
                         21.00         75.66                62.25
                         26.00         72.68                65.22
                         31.00         70.08                67.82
                         36.00         67.75                70.15
                         41.00         65.63                72.28
                         46.00         63.67                74.23
                         51.00         61.85                76.06
                         56.00         60.14                77.76
                         61.00         58.54                79.36
                         66.00         57.02                80.88
                         71.00         55.59                82.32
                         76.00         54.22                83.68
                         81.00         52.92                84.98
                         86.00         51.68                86.22
                         91.00         50.49                87.41
                         96.00         49.35                88.55
                        101.00         48.26                89.64
                        106.00         47.21                90.70
                        105.69         47.27                90.63
                                                                          (R)
                        505.00          0.99               136.91
                        510.00          0.53               137.38
                        515.00          0.06               137.84
                        520.00         -0.40               138.31
                        525.00         -0.87               138.77
                        530.00         -1.33               139.23
                        535.00         -1.80               139.70
                        540.00         -2.26               140.16
                        545.00         -2.72               140.62
                        550.00         -3.18               141.09
                        555.00         -3.64               141.55
                        560.00         -4.11               142.01
                        565.00         -4.57               142.47
                        570.00         -5.03               142.93
                        575.00         -5.49               143.39
                        580.00         -5.95               143.85
                        585.00         -6.41               144.31
                        590.00         -6.87               144.77
                        595.00         -7.33               145.23
                        600.00         -7.78               145.69
                        605.00         -8.24               146.14
                        610.00         -8.70               146.60
                        615.00         -9.16               147.06
                        620.00         -9.62               147.52
                        625.00        -10.07               147.98
                        630.00        -10.53               148.43
                        635.00        -10.99               148.89
                        640.00        -11.44               149.35
                        645.00        -11.90               149.80
                        650.00        -12.36               150.26
                        655.00        -12.81               150.71
                        660.00        -13.27               151.17
                        665.00        -13.72               151.62
                        670.00        -14.18               152.08
                        675.00        -14.63               152.53
                        680.00        -15.09               152.99
                        685.00        -15.54               153.44
                        690.00        -15.99               153.90
                        695.00        -16.45               154.35
                        700.00        -16.90               154.81
                        705.00        -17.36               155.26
                        710.00        -17.81               155.71
                        715.00        -18.26               156.17
                        720.00        -18.72               156.62
                        725.00        -19.17               157.07
                        730.00        -19.62               157.52
                        735.00        -20.07               157.98
                        740.00        -20.53               158.43
                        745.00        -20.98               158.88
                        750.00        -21.43               159.33
                        755.00        -21.88               159.78
                        760.00        -22.33               160.24
                        765.00        -22.78               160.69
                        770.00        -23.24               161.14
                        775.00        -23.69               161.59
                        780.00        -24.14               162.04
                        785.00        -24.59               162.49
                        790.00        -25.04               162.94
                        795.00        -25.49               163.39
                        800.00        -25.94               163.84
                        805.00        -26.39               164.29
                        810.00        -26.84               164.74
                        815.00        -27.29               165.19
                        820.00        -27.74               165.64
                        825.00        -28.19               166.09
                        830.00        -28.64               166.54
                        835.00        -29.09               166.99
                        840.00        -29.54               167.44
                        845.00        -29.99               167.89
                        850.00        -30.43               168.34
                        855.00        -30.88               168.79
                        860.00        -31.33               169.23
                        865.00        -31.78               169.68
                        870.00        -32.23               170.13
                        875.00        -32.68               170.58
                        880.00        -33.12               171.03
                        885.00        -33.57               171.47
                        890.00        -34.02               171.92
                        895.00        -34.47               172.37
                        900.00        -34.92               172.82
                        905.00        -35.36               173.27
                        910.00        -35.81               173.71
                        915.00        -36.26               174.16
                        920.00        -36.70               174.61
                        925.00        -37.15               175.05
                        930.00        -37.60               175.50
                        935.00        -38.04               175.95
                        940.00        -38.49               176.39
                        945.00        -38.94               176.84
                        950.00        -39.38               177.29
                        955.00        -39.83               177.73
                        960.00        -40.28               178.18
                        965.00        -40.72               178.62
                        970.00        -41.17               179.07
                        975.00        -41.61               179.52
                        980.00        -42.06               179.96
                        985.00        -42.50               180.41
                        990.00        -42.95               180.85
                        995.00        -43.39               181.30
                       1000.00        -43.84               181.74
