 ******GRWAVE  (RELEASE 2 AT 23/10/1985 )********
 *****COPYRIGHT  (C)   GEC   PLC   1985   *********
 CCIR Personal Computer Version 1989 Study Group 5 IWP5/1
 
 GRWAVE COMPUTES FIELD STRENGTH-DISTANCE VARIATIONS
 FOR A HOMOGENEOUS CURVED EARTH WITH EXPONENTIALLY
 DECREASING REFRACTIVE INDEX


                     ATMOSPHERIC CONSTANTS
                         REFRACTIVITY =315.00  (N-UNITS)
                         SCALE HEIGHT = 7.350  KM

                     GROUND CONSTANTS
                         RELATIVE PERMITTIVITY =    30.000
                         CONDUCTIVITY =1.0000D-02  SIEMENS/METRE

                     VERTICAL POLARISATION

                     MINIMUM DISTANCE =     1.000  KILOMETRES
                     MAXIMUM DISTANCE =  1000.000  KILOMETRES
                     DSTEP            =     5.000  KILOMETRES


                     FREQUENCY =  975.000 MHZ

                     TRANSMITTER HEIGHT =   949.9  METRES
                     RECIEVER HEIGHT    =   283.8  METRES

                     DISTANCE      FIELD STRENGTH     BASIC TRANSMISSION LOSS
                        KM            DB(UV/M)               DB           (G) 
                          9.64         82.33               113.41
                         14.64         82.87               112.88
                         19.64         80.36               115.39
                         24.64         72.52               123.22
                         29.64         76.37               119.37
                         34.64         73.75               122.00
                         39.64         61.30               134.44
                         44.64         74.36               121.38
                         49.64         72.61               123.14
                         54.64         72.11               123.63
                         59.64         72.31               123.44
                         64.64         55.67               140.07
                         69.64         70.33               125.41
                         74.64         70.25               125.49
                         79.64         65.33               130.41
                         84.64         64.86               130.88
                         89.64         67.33               128.42
                         94.64         68.11               127.64
                         99.64         61.75               133.99
                        104.64         53.08               142.66
                        109.64         51.89               143.85
                        114.64         55.00               140.74
                        119.64         61.78               133.96
                        124.64         65.48               130.27
                        129.64         64.38               131.36
                        134.64         52.61               143.13
                        139.64         63.99               131.75
                        144.64         59.39               136.35
                        149.64         62.36               133.38
                        154.64         57.20               138.54
                        159.64         62.73               133.01
                        164.64         56.36               139.39
                        169.64         58.10               137.65
                        174.64         61.21               134.54
                        179.64         60.11               135.63
                        184.64         57.53               138.21
                        189.64         55.97               139.77
                        194.64         56.12               139.62
                                                                          (R)
                        505.00       -232.66               428.40
                        510.00       -237.16               432.91
                        515.00       -241.67               437.42
                        520.00       -246.18               441.92
                        525.00       -250.69               446.43
                        530.00       -255.19               450.94
                        535.00       -259.70               455.44
                        540.00       -264.21               459.95
                        545.00       -268.71               464.45
                        550.00       -273.22               468.96
                        555.00       -277.72               473.46
                        560.00       -282.23               477.97
                        565.00       -286.73               482.47
                        570.00       -291.23               486.98
                        575.00       -295.74               491.48
                        580.00       -300.24               495.98
                        585.00       -304.74               500.49
                        590.00       -309.25               504.99
                        595.00       -313.75               509.49
                        600.00       -318.25               513.99
                        605.00       -322.75               518.49
                        610.00       -327.25               523.00
                        615.00       -331.75               527.50
                        620.00       -336.25               532.00
                        625.00       -340.75               536.50
                        630.00       -345.25               541.00
                        635.00       -349.75               545.50
                        640.00       -354.25               550.00
                        645.00       -358.75               554.50
                        650.00       -363.25               559.00
                        655.00       -367.75               563.49
                        660.00       -372.25               567.99
                        665.00       -376.75               572.49
                        670.00       -381.25               576.99
                        675.00       -385.74               581.49
                        680.00       -390.24               585.98
                        685.00       -394.74               590.48
                        690.00       -399.24               594.98
                        695.00       -403.73               599.48
                        700.00       -408.23               603.97
                        705.00       -412.73               608.47
                        710.00       -417.22               612.96
                        715.00       -421.72               617.46
                        720.00       -426.21               621.96
                        725.00       -430.71               626.45
                        730.00       -435.20               630.95
                        735.00       -439.70               635.44
                        740.00       -444.19               639.94
                        745.00       -448.69               644.43
                        750.00       -453.18               648.93
                        755.00       -457.68               653.42
                        760.00       -462.17               657.92
                        765.00       -466.67               662.41
                        770.00       -471.16               666.90
                        775.00       -475.65               671.40
                        780.00       -480.15               675.89
                        785.00       -484.64               680.38
                        790.00       -489.13               684.88
                        795.00       -493.63               689.37
                        800.00       -498.12               693.86
                        805.00       -502.61               698.35
                        810.00       -507.10               702.85
                        815.00       -511.60               707.34
                        820.00       -516.09               711.83
                        825.00       -520.58               716.32
                        830.00       -525.07               720.81
                        835.00       -529.56               725.31
                        840.00       -534.05               729.80
                        845.00       -538.55               734.29
                        850.00       -543.04               738.78
                        855.00       -547.53               743.27
                        860.00       -552.02               747.76
                        865.00       -556.51               752.25
                        870.00       -561.00               756.74
                        875.00       -565.49               761.23
                        880.00       -569.98               765.72
                        885.00       -574.47               770.21
                        890.00       -578.96               774.70
                        895.00       -583.45               779.19
                        900.00       -587.94               783.68
                        905.00       -592.43               788.17
                        910.00       -596.92               792.66
                        915.00       -601.41               797.15
                        920.00       -605.90               801.64
                        925.00       -610.39               806.13
                        930.00       -614.87               810.62
                        935.00       -619.36               815.11
                        940.00       -623.85               819.60
                        945.00       -628.34               824.08
                        950.00       -632.83               828.57
                        955.00       -637.32               833.06
                        960.00       -641.81               837.55
                        965.00       -646.29               842.04
                        970.00       -650.78               846.52
                        975.00       -655.27               851.01
                        980.00       -659.76               855.50
                        985.00       -664.24               859.99
                        990.00       -668.73               864.47
                        995.00       -673.22               868.96
                       1000.00       -677.71               873.45
